{
  "Entries": [
    {
      "RequestUri": "https://javatextanalyticstestresources.cognitiveservices.azure.com/language/analyze-text/jobs?api-version=2022-04-01-preview",
      "RequestMethod": "POST",
      "RequestHeaders": {
        "Accept": "application/json",
        "Authorization": "Sanitized",
        "Connection": "keep-alive",
        "Content-Length": "344",
        "Content-Type": "application/json",
        "traceparent": "00-ec5d52b345f91741b2ff7f377f97c6fb-dbbd612a6f3d384d-00",
        "User-Agent": "azsdk-net-AI.TextAnalytics/5.2.0-alpha.20220516.1 (.NET Framework 4.8.4510.0; Microsoft Windows 10.0.19044 )",
        "x-ms-client-request-id": "5cad51cba1414c74ab108fb4ad010225",
        "x-ms-return-client-request-id": "true"
      },
      "RequestBody": {
        "analysisInput": {
          "documents": [
            {
              "id": "1",
              "text": "Subject is taking 100mg of ibuprofen twice daily",
              "language": "en"
            },
            {
              "id": "2",
              "text": "Can cause rapid or irregular heartbeat, delirium, panic, psychosis, and heart failure.",
              "language": "en"
            }
          ]
        },
        "tasks": [
          {
            "parameters": {
              "fhirVersion": "4.0.1",
              "stringIndexType": "Utf16CodeUnit"
            },
            "kind": "Healthcare"
          }
        ]
      },
      "StatusCode": 202,
      "ResponseHeaders": {
        "apim-request-id": "165c75da-ab32-48c4-b093-df3f2d5423d6",
        "Content-Length": "0",
        "Date": "Mon, 16 May 2022 20:39:46 GMT",
        "operation-location": "https://javatextanalyticstestresources.cognitiveservices.azure.com/language/analyze-text/jobs/63969606-5323-461a-80c0-352c164fd7bb?api-version=2022-04-01-preview",
        "Strict-Transport-Security": "max-age=31536000; includeSubDomains; preload",
        "X-Content-Type-Options": "nosniff",
        "x-envoy-upstream-service-time": "260"
      },
      "ResponseBody": null
    },
    {
      "RequestUri": "https://javatextanalyticstestresources.cognitiveservices.azure.com/language/analyze-text/jobs/63969606-5323-461a-80c0-352c164fd7bb?api-version=2022-04-01-preview\u0026showStats=false",
      "RequestMethod": "GET",
      "RequestHeaders": {
        "Accept": "application/json",
        "Authorization": "Sanitized",
        "User-Agent": "azsdk-net-AI.TextAnalytics/5.2.0-alpha.20220516.1 (.NET Framework 4.8.4510.0; Microsoft Windows 10.0.19044 )",
        "x-ms-client-request-id": "abc0512e2180f0610098fe58ab7d2d47",
        "x-ms-return-client-request-id": "true"
      },
      "RequestBody": null,
      "StatusCode": 200,
      "ResponseHeaders": {
        "apim-request-id": "d1d09a20-53f9-42dc-aabc-bf0f193f4a2d",
        "Content-Length": "279",
        "Content-Type": "application/json; charset=utf-8",
        "Date": "Mon, 16 May 2022 20:39:46 GMT",
        "Strict-Transport-Security": "max-age=31536000; includeSubDomains; preload",
        "X-Content-Type-Options": "nosniff",
        "x-envoy-upstream-service-time": "9"
      },
      "ResponseBody": {
        "jobId": "63969606-5323-461a-80c0-352c164fd7bb",
        "lastUpdateDateTime": "2022-05-16T20:39:47Z",
        "createdDateTime": "2022-05-16T20:39:46Z",
        "expirationDateTime": "2022-05-17T20:39:46Z",
        "status": "running",
        "errors": [],
        "tasks": {
          "completed": 0,
          "failed": 0,
          "inProgress": 1,
          "total": 1,
          "items": []
        }
      }
    },
    {
      "RequestUri": "https://javatextanalyticstestresources.cognitiveservices.azure.com/language/analyze-text/jobs/63969606-5323-461a-80c0-352c164fd7bb?api-version=2022-04-01-preview\u0026showStats=false",
      "RequestMethod": "GET",
      "RequestHeaders": {
        "Accept": "application/json",
        "Authorization": "Sanitized",
        "User-Agent": "azsdk-net-AI.TextAnalytics/5.2.0-alpha.20220516.1 (.NET Framework 4.8.4510.0; Microsoft Windows 10.0.19044 )",
        "x-ms-client-request-id": "20018c00e99078c98e87950fd18e561e",
        "x-ms-return-client-request-id": "true"
      },
      "RequestBody": null,
      "StatusCode": 200,
      "ResponseHeaders": {
        "apim-request-id": "b7bdb9b4-6d55-40b7-bfa2-7e1132005ce7",
        "Content-Length": "38156",
        "Content-Type": "application/json; charset=utf-8",
        "Date": "Mon, 16 May 2022 20:39:47 GMT",
        "Strict-Transport-Security": "max-age=31536000; includeSubDomains; preload",
        "X-Content-Type-Options": "nosniff",
        "x-envoy-upstream-service-time": "48"
      },
      "ResponseBody": {
        "jobId": "63969606-5323-461a-80c0-352c164fd7bb",
        "lastUpdateDateTime": "2022-05-16T20:39:47Z",
        "createdDateTime": "2022-05-16T20:39:46Z",
        "expirationDateTime": "2022-05-17T20:39:46Z",
        "status": "succeeded",
        "errors": [],
        "tasks": {
          "completed": 1,
          "failed": 0,
          "inProgress": 0,
          "total": 1,
          "items": [
            {
              "kind": "HealthcareLROResults",
              "lastUpdateDateTime": "2022-05-16T20:39:47.6299453Z",
              "status": "succeeded",
              "results": {
                "documents": [
                  {
                    "id": "1",
                    "entities": [
                      {
                        "offset": 18,
                        "length": 5,
                        "text": "100mg",
                        "category": "Dosage",
                        "confidenceScore": 0.99
                      },
                      {
                        "offset": 27,
                        "length": 9,
                        "text": "ibuprofen",
                        "category": "MedicationName",
                        "confidenceScore": 1.0,
                        "name": "ibuprofen",
                        "links": [
                          {
                            "dataSource": "UMLS",
                            "id": "C0020740"
                          },
                          {
                            "dataSource": "AOD",
                            "id": "0000019879"
                          },
                          {
                            "dataSource": "ATC",
                            "id": "M01AE01"
                          },
                          {
                            "dataSource": "CCPSS",
                            "id": "0046165"
                          },
                          {
                            "dataSource": "CHV",
                            "id": "0000006519"
                          },
                          {
                            "dataSource": "CSP",
                            "id": "2270-2077"
                          },
                          {
                            "dataSource": "DRUGBANK",
                            "id": "DB01050"
                          },
                          {
                            "dataSource": "GS",
                            "id": "1611"
                          },
                          {
                            "dataSource": "LCH_NW",
                            "id": "sh97005926"
                          },
                          {
                            "dataSource": "LNC",
                            "id": "LP16165-0"
                          },
                          {
                            "dataSource": "MEDCIN",
                            "id": "40458"
                          },
                          {
                            "dataSource": "MMSL",
                            "id": "d00015"
                          },
                          {
                            "dataSource": "MSH",
                            "id": "D007052"
                          },
                          {
                            "dataSource": "MTHSPL",
                            "id": "WK2XYI10QM"
                          },
                          {
                            "dataSource": "NCI",
                            "id": "C561"
                          },
                          {
                            "dataSource": "NCI_CTRP",
                            "id": "C561"
                          },
                          {
                            "dataSource": "NCI_DCP",
                            "id": "00803"
                          },
                          {
                            "dataSource": "NCI_DTP",
                            "id": "NSC0256857"
                          },
                          {
                            "dataSource": "NCI_FDA",
                            "id": "WK2XYI10QM"
                          },
                          {
                            "dataSource": "NCI_NCI-GLOSS",
                            "id": "CDR0000613511"
                          },
                          {
                            "dataSource": "NDDF",
                            "id": "002377"
                          },
                          {
                            "dataSource": "PDQ",
                            "id": "CDR0000040475"
                          },
                          {
                            "dataSource": "RCD",
                            "id": "x02MO"
                          },
                          {
                            "dataSource": "RXNORM",
                            "id": "5640"
                          },
                          {
                            "dataSource": "SNM",
                            "id": "E-7772"
                          },
                          {
                            "dataSource": "SNMI",
                            "id": "C-603C0"
                          },
                          {
                            "dataSource": "SNOMEDCT_US",
                            "id": "387207008"
                          },
                          {
                            "dataSource": "USP",
                            "id": "m39860"
                          },
                          {
                            "dataSource": "USPMG",
                            "id": "MTHU000060"
                          },
                          {
                            "dataSource": "VANDF",
                            "id": "4017840"
                          }
                        ]
                      },
                      {
                        "offset": 37,
                        "length": 11,
                        "text": "twice daily",
                        "category": "Frequency",
                        "confidenceScore": 1.0
                      }
                    ],
                    "relations": [
                      {
                        "relationType": "DosageOfMedication",
                        "entities": [
                          {
                            "ref": "#/results/documents/0/entities/0",
                            "role": "Dosage"
                          },
                          {
                            "ref": "#/results/documents/0/entities/1",
                            "role": "Medication"
                          }
                        ]
                      },
                      {
                        "relationType": "FrequencyOfMedication",
                        "entities": [
                          {
                            "ref": "#/results/documents/0/entities/1",
                            "role": "Medication"
                          },
                          {
                            "ref": "#/results/documents/0/entities/2",
                            "role": "Frequency"
                          }
                        ]
                      }
                    ],
                    "warnings": [],
                    "fhirBundle": {
                      "resourceType": "Bundle",
                      "id": "03a84e2d-c1cb-4001-a192-4d3cc5a01df2",
                      "meta": {
                        "profile": [
                          "http://hl7.org/fhir/4.0.1/StructureDefinition/Bundle"
                        ]
                      },
                      "identifier": {
                        "system": "urn:ietf:rfc:3986",
                        "value": "urn:uuid:03a84e2d-c1cb-4001-a192-4d3cc5a01df2"
                      },
                      "type": "document",
                      "entry": [
                        {
                          "fullUrl": "Composition/8cfd0a2c-53ca-493c-ac0b-06d2a055bd03",
                          "resource": {
                            "resourceType": "Composition",
                            "id": "8cfd0a2c-53ca-493c-ac0b-06d2a055bd03",
                            "status": "final",
                            "type": {
                              "coding": [
                                {
                                  "system": "http://loinc.org",
                                  "code": "11526-1",
                                  "display": "Pathology study"
                                }
                              ],
                              "text": "Pathology study"
                            },
                            "subject": {
                              "reference": "Patient/7d6888c6-7ee3-43a0-aded-43641f275cf6",
                              "type": "Patient"
                            },
                            "encounter": {
                              "reference": "Encounter/1911237b-603b-409b-ac41-5bee1b8f8afd",
                              "type": "Encounter",
                              "display": "unknown"
                            },
                            "date": "2022-05-16",
                            "author": [
                              {
                                "reference": "Practitioner/5b621f9d-a5f6-4cba-8484-41c0599f5fb1",
                                "type": "Practitioner",
                                "display": "Unknown"
                              }
                            ],
                            "title": "Pathology study",
                            "section": [
                              {
                                "title": "General",
                                "code": {
                                  "coding": [
                                    {
                                      "system": "",
                                      "display": "Unrecognized Section"
                                    }
                                  ],
                                  "text": "General"
                                },
                                "text": {
                                  "div": "\u003Cdiv\u003E\r\n\t\t\t\t\t\t\t\u003Ch1\u003EGeneral\u003C/h1\u003E\r\n\t\t\t\t\t\t\t\u003Cp\u003ESubject is taking 100mg of ibuprofen twice daily\u003C/p\u003E\r\n\t\t\t\t\t\u003C/div\u003E"
                                },
                                "entry": [
                                  {
                                    "reference": "List/80b04f4b-1d02-4bc7-a624-744f8e72dc5a",
                                    "type": "List",
                                    "display": "General"
                                  }
                                ]
                              }
                            ]
                          }
                        },
                        {
                          "fullUrl": "Practitioner/5b621f9d-a5f6-4cba-8484-41c0599f5fb1",
                          "resource": {
                            "resourceType": "Practitioner",
                            "id": "5b621f9d-a5f6-4cba-8484-41c0599f5fb1",
                            "extension": [
                              {
                                "extension": [
                                  {
                                    "url": "offset",
                                    "valueInteger": -1
                                  },
                                  {
                                    "url": "length",
                                    "valueInteger": 7
                                  }
                                ],
                                "url": "http://hl7.org/fhir/StructureDefinition/derivation-reference"
                              }
                            ],
                            "name": [
                              {
                                "text": "Unknown",
                                "family": "Unknown"
                              }
                            ]
                          }
                        },
                        {
                          "fullUrl": "Patient/7d6888c6-7ee3-43a0-aded-43641f275cf6",
                          "resource": {
                            "resourceType": "Patient",
                            "id": "7d6888c6-7ee3-43a0-aded-43641f275cf6",
                            "gender": "unknown"
                          }
                        },
                        {
                          "fullUrl": "Encounter/1911237b-603b-409b-ac41-5bee1b8f8afd",
                          "resource": {
                            "resourceType": "Encounter",
                            "id": "1911237b-603b-409b-ac41-5bee1b8f8afd",
                            "meta": {
                              "profile": [
                                "http://hl7.org/fhir/us/core/StructureDefinition/us-core-encounter"
                              ]
                            },
                            "status": "finished",
                            "class": {
                              "system": "http://terminology.hl7.org/CodeSystem/v3-ActCode",
                              "display": "unknown"
                            },
                            "subject": {
                              "reference": "Patient/7d6888c6-7ee3-43a0-aded-43641f275cf6",
                              "type": "Patient"
                            }
                          }
                        },
                        {
                          "fullUrl": "MedicationStatement/cf008c07-c616-440a-92da-e2bbce81a0f9",
                          "resource": {
                            "resourceType": "MedicationStatement",
                            "id": "cf008c07-c616-440a-92da-e2bbce81a0f9",
                            "extension": [
                              {
                                "extension": [
                                  {
                                    "url": "offset",
                                    "valueInteger": 27
                                  },
                                  {
                                    "url": "length",
                                    "valueInteger": 9
                                  }
                                ],
                                "url": "http://hl7.org/fhir/StructureDefinition/derivation-reference"
                              }
                            ],
                            "status": "active",
                            "medicationCodeableConcept": {
                              "coding": [
                                {
                                  "system": "http://www.nlm.nih.gov/research/umls",
                                  "code": "C0020740",
                                  "display": "ibuprofen"
                                },
                                {
                                  "system": "http://www.nlm.nih.gov/research/umls/aod",
                                  "code": "0000019879"
                                },
                                {
                                  "system": "http://www.whocc.no/atc",
                                  "code": "M01AE01"
                                },
                                {
                                  "system": "http://www.nlm.nih.gov/research/umls/ccpss",
                                  "code": "0046165"
                                },
                                {
                                  "system": "http://www.nlm.nih.gov/research/umls/chv",
                                  "code": "0000006519"
                                },
                                {
                                  "system": "http://www.nlm.nih.gov/research/umls/csp",
                                  "code": "2270-2077"
                                },
                                {
                                  "system": "http://www.nlm.nih.gov/research/umls/drugbank",
                                  "code": "DB01050"
                                },
                                {
                                  "system": "http://www.nlm.nih.gov/research/umls/gs",
                                  "code": "1611"
                                },
                                {
                                  "system": "http://www.nlm.nih.gov/research/umls/lch_nw",
                                  "code": "sh97005926"
                                },
                                {
                                  "system": "http://loinc.org",
                                  "code": "LP16165-0"
                                },
                                {
                                  "system": "http://www.nlm.nih.gov/research/umls/medcin",
                                  "code": "40458"
                                },
                                {
                                  "system": "http://www.nlm.nih.gov/research/umls/mmsl",
                                  "code": "d00015"
                                },
                                {
                                  "system": "http://www.nlm.nih.gov/research/umls/msh",
                                  "code": "D007052"
                                },
                                {
                                  "system": "http://www.nlm.nih.gov/research/umls/mthspl",
                                  "code": "WK2XYI10QM"
                                },
                                {
                                  "system": "http://ncimeta.nci.nih.gov",
                                  "code": "C561"
                                },
                                {
                                  "system": "http://www.nlm.nih.gov/research/umls/nci_ctrp",
                                  "code": "C561"
                                },
                                {
                                  "system": "http://www.nlm.nih.gov/research/umls/nci_dcp",
                                  "code": "00803"
                                },
                                {
                                  "system": "http://www.nlm.nih.gov/research/umls/nci_dtp",
                                  "code": "NSC0256857"
                                },
                                {
                                  "system": "http://www.nlm.nih.gov/research/umls/nci_fda",
                                  "code": "WK2XYI10QM"
                                },
                                {
                                  "system": "http://www.nlm.nih.gov/research/umls/nci_nci-gloss",
                                  "code": "CDR0000613511"
                                },
                                {
                                  "system": "http://www.nlm.nih.gov/research/umls/nddf",
                                  "code": "002377"
                                },
                                {
                                  "system": "http://www.nlm.nih.gov/research/umls/pdq",
                                  "code": "CDR0000040475"
                                },
                                {
                                  "system": "http://www.nlm.nih.gov/research/umls/rcd",
                                  "code": "x02MO"
                                },
                                {
                                  "system": "http://www.nlm.nih.gov/research/umls/rxnorm",
                                  "code": "5640"
                                },
                                {
                                  "system": "http://snomed.info/sct",
                                  "code": "E-7772"
                                },
                                {
                                  "system": "http://snomed.info/sct/900000000000207008",
                                  "code": "C-603C0"
                                },
                                {
                                  "system": "http://snomed.info/sct/731000124108",
                                  "code": "387207008"
                                },
                                {
                                  "system": "http://www.nlm.nih.gov/research/umls/usp",
                                  "code": "m39860"
                                },
                                {
                                  "system": "http://www.nlm.nih.gov/research/umls/uspmg",
                                  "code": "MTHU000060"
                                },
                                {
                                  "system": "http://hl7.org/fhir/ndfrt",
                                  "code": "4017840"
                                }
                              ],
                              "text": "ibuprofen"
                            },
                            "subject": {
                              "reference": "Patient/7d6888c6-7ee3-43a0-aded-43641f275cf6",
                              "type": "Patient"
                            },
                            "context": {
                              "reference": "Encounter/1911237b-603b-409b-ac41-5bee1b8f8afd",
                              "type": "Encounter",
                              "display": "unknown"
                            },
                            "dosage": [
                              {
                                "text": "100mg",
                                "timing": {
                                  "repeat": {
                                    "frequency": 2,
                                    "period": 1,
                                    "periodUnit": "d"
                                  },
                                  "code": {
                                    "text": "twice daily"
                                  }
                                },
                                "doseAndRate": [
                                  {
                                    "doseQuantity": {
                                      "value": 100
                                    }
                                  }
                                ]
                              }
                            ]
                          }
                        },
                        {
                          "fullUrl": "List/80b04f4b-1d02-4bc7-a624-744f8e72dc5a",
                          "resource": {
                            "resourceType": "List",
                            "id": "80b04f4b-1d02-4bc7-a624-744f8e72dc5a",
                            "status": "current",
                            "mode": "snapshot",
                            "title": "General",
                            "subject": {
                              "reference": "Patient/7d6888c6-7ee3-43a0-aded-43641f275cf6",
                              "type": "Patient"
                            },
                            "encounter": {
                              "reference": "Encounter/1911237b-603b-409b-ac41-5bee1b8f8afd",
                              "type": "Encounter",
                              "display": "unknown"
                            },
                            "entry": [
                              {
                                "item": {
                                  "reference": "MedicationStatement/cf008c07-c616-440a-92da-e2bbce81a0f9",
                                  "type": "MedicationStatement",
                                  "display": "ibuprofen"
                                }
                              }
                            ]
                          }
                        }
                      ]
                    }
                  },
                  {
                    "id": "2",
                    "entities": [
                      {
                        "offset": 10,
                        "length": 5,
                        "text": "rapid",
                        "category": "SymptomOrSign",
                        "confidenceScore": 0.88,
                        "name": "Rapid",
                        "links": [
                          {
                            "dataSource": "UMLS",
                            "id": "C0456962"
                          },
                          {
                            "dataSource": "AOD",
                            "id": "0000002744"
                          },
                          {
                            "dataSource": "CHV",
                            "id": "0000034666"
                          },
                          {
                            "dataSource": "LNC",
                            "id": "LA24868-4"
                          },
                          {
                            "dataSource": "NCI",
                            "id": "C65069"
                          },
                          {
                            "dataSource": "RCD",
                            "id": "X78xZ"
                          },
                          {
                            "dataSource": "SNOMEDCT_US",
                            "id": "255358001"
                          }
                        ]
                      },
                      {
                        "offset": 19,
                        "length": 19,
                        "text": "irregular heartbeat",
                        "category": "SymptomOrSign",
                        "confidenceScore": 1.0,
                        "name": "Cardiac Arrhythmia",
                        "links": [
                          {
                            "dataSource": "UMLS",
                            "id": "C0003811"
                          },
                          {
                            "dataSource": "AOD",
                            "id": "0000005346"
                          },
                          {
                            "dataSource": "BI",
                            "id": "BI00057"
                          },
                          {
                            "dataSource": "CCPSS",
                            "id": "1017785"
                          },
                          {
                            "dataSource": "CCS",
                            "id": "7.2.9"
                          },
                          {
                            "dataSource": "CCSR_10",
                            "id": "CIR017"
                          },
                          {
                            "dataSource": "CCSR_ICD10CM",
                            "id": "CIR017"
                          },
                          {
                            "dataSource": "CHV",
                            "id": "0000001440"
                          },
                          {
                            "dataSource": "COSTAR",
                            "id": "153"
                          },
                          {
                            "dataSource": "CSP",
                            "id": "1393-3277"
                          },
                          {
                            "dataSource": "CST",
                            "id": "ARRHYTHMIA"
                          },
                          {
                            "dataSource": "HPO",
                            "id": "HP:0011675"
                          },
                          {
                            "dataSource": "ICD10",
                            "id": "I49.9"
                          },
                          {
                            "dataSource": "ICD10AM",
                            "id": "I49.9"
                          },
                          {
                            "dataSource": "ICD10CM",
                            "id": "I49.9"
                          },
                          {
                            "dataSource": "ICD9CM",
                            "id": "427.9"
                          },
                          {
                            "dataSource": "ICPC",
                            "id": "K80"
                          },
                          {
                            "dataSource": "ICPC2EENG",
                            "id": "K80"
                          },
                          {
                            "dataSource": "ICPC2ICD10ENG",
                            "id": "MTHU033639"
                          },
                          {
                            "dataSource": "ICPC2P",
                            "id": "K80012"
                          },
                          {
                            "dataSource": "LCH",
                            "id": "U000359"
                          },
                          {
                            "dataSource": "LCH_NW",
                            "id": "sh85007430"
                          },
                          {
                            "dataSource": "LNC",
                            "id": "LA15419-7"
                          },
                          {
                            "dataSource": "MDR",
                            "id": "10003119"
                          },
                          {
                            "dataSource": "MEDCIN",
                            "id": "35851"
                          },
                          {
                            "dataSource": "MEDLINEPLUS",
                            "id": "147"
                          },
                          {
                            "dataSource": "MSH",
                            "id": "D001145"
                          },
                          {
                            "dataSource": "MTH",
                            "id": "153"
                          },
                          {
                            "dataSource": "MTHICD9",
                            "id": "427.9"
                          },
                          {
                            "dataSource": "NANDA-I",
                            "id": "00126"
                          },
                          {
                            "dataSource": "NCI",
                            "id": "C2881"
                          },
                          {
                            "dataSource": "NCI_FDA",
                            "id": "1721"
                          },
                          {
                            "dataSource": "NCI_GDC",
                            "id": "C2881"
                          },
                          {
                            "dataSource": "NCI_NICHD",
                            "id": "C2881"
                          },
                          {
                            "dataSource": "NCI_caDSR",
                            "id": "C2881"
                          },
                          {
                            "dataSource": "NOC",
                            "id": "040520"
                          },
                          {
                            "dataSource": "OMIM",
                            "id": "115000"
                          },
                          {
                            "dataSource": "PSY",
                            "id": "03790"
                          },
                          {
                            "dataSource": "RCD",
                            "id": "X77BB"
                          },
                          {
                            "dataSource": "SNM",
                            "id": "F-73102"
                          },
                          {
                            "dataSource": "SNMI",
                            "id": "D3-30010"
                          },
                          {
                            "dataSource": "SNOMEDCT_US",
                            "id": "698247007"
                          },
                          {
                            "dataSource": "WHO",
                            "id": "0433"
                          }
                        ]
                      },
                      {
                        "offset": 40,
                        "length": 8,
                        "text": "delirium",
                        "category": "Diagnosis",
                        "confidenceScore": 0.98,
                        "name": "Delirium",
                        "links": [
                          {
                            "dataSource": "UMLS",
                            "id": "C0011206"
                          },
                          {
                            "dataSource": "AOD",
                            "id": "0000004328"
                          },
                          {
                            "dataSource": "CCPSS",
                            "id": "1017884"
                          },
                          {
                            "dataSource": "CHV",
                            "id": "0000003670"
                          },
                          {
                            "dataSource": "COSTAR",
                            "id": "U000178"
                          },
                          {
                            "dataSource": "CSP",
                            "id": "5003-0016"
                          },
                          {
                            "dataSource": "CST",
                            "id": "DELIRIUM"
                          },
                          {
                            "dataSource": "DSM-5",
                            "id": "780.09"
                          },
                          {
                            "dataSource": "DXP",
                            "id": "U000937"
                          },
                          {
                            "dataSource": "HPO",
                            "id": "HP:0031258"
                          },
                          {
                            "dataSource": "ICD10",
                            "id": "F05.9"
                          },
                          {
                            "dataSource": "ICD10AM",
                            "id": "F05.9"
                          },
                          {
                            "dataSource": "ICD10CM",
                            "id": "R41.0"
                          },
                          {
                            "dataSource": "ICNP",
                            "id": "10022091"
                          },
                          {
                            "dataSource": "ICPC2ICD10ENG",
                            "id": "MTHU022150"
                          },
                          {
                            "dataSource": "LCH",
                            "id": "U001289"
                          },
                          {
                            "dataSource": "LCH_NW",
                            "id": "sh85036579"
                          },
                          {
                            "dataSource": "LNC",
                            "id": "LP89856-6"
                          },
                          {
                            "dataSource": "MDR",
                            "id": "10012218"
                          },
                          {
                            "dataSource": "MEDCIN",
                            "id": "677"
                          },
                          {
                            "dataSource": "MEDLINEPLUS",
                            "id": "5562"
                          },
                          {
                            "dataSource": "MSH",
                            "id": "D003693"
                          },
                          {
                            "dataSource": "NANDA-I",
                            "id": "02157"
                          },
                          {
                            "dataSource": "NCI",
                            "id": "C2981"
                          },
                          {
                            "dataSource": "NCI_CTCAE",
                            "id": "E12898"
                          },
                          {
                            "dataSource": "NCI_CTRP",
                            "id": "C2981"
                          },
                          {
                            "dataSource": "NCI_NCI-GLOSS",
                            "id": "CDR0000450100"
                          },
                          {
                            "dataSource": "NCI_NICHD",
                            "id": "C2981"
                          },
                          {
                            "dataSource": "NCI_caDSR",
                            "id": "C2981"
                          },
                          {
                            "dataSource": "NOC",
                            "id": "091213"
                          },
                          {
                            "dataSource": "OMIM",
                            "id": "MTHU035152"
                          },
                          {
                            "dataSource": "PDQ",
                            "id": "CDR0000042226"
                          },
                          {
                            "dataSource": "PSY",
                            "id": "13360"
                          },
                          {
                            "dataSource": "QMR",
                            "id": "Q0200089"
                          },
                          {
                            "dataSource": "RCD",
                            "id": "XE1Xv"
                          },
                          {
                            "dataSource": "SNM",
                            "id": "F-85720"
                          },
                          {
                            "dataSource": "SNMI",
                            "id": "D9-20100"
                          },
                          {
                            "dataSource": "SNOMEDCT_US",
                            "id": "2776000"
                          },
                          {
                            "dataSource": "WHO",
                            "id": "0099"
                          }
                        ]
                      },
                      {
                        "offset": 50,
                        "length": 5,
                        "text": "panic",
                        "category": "Diagnosis",
                        "confidenceScore": 0.93,
                        "name": "Panic",
                        "links": [
                          {
                            "dataSource": "UMLS",
                            "id": "C0030318"
                          },
                          {
                            "dataSource": "AOD",
                            "id": "0000023911"
                          },
                          {
                            "dataSource": "CHV",
                            "id": "0000009234"
                          },
                          {
                            "dataSource": "CST",
                            "id": "AGITATION"
                          },
                          {
                            "dataSource": "ICD10CM",
                            "id": "F41.0"
                          },
                          {
                            "dataSource": "ICPC2ICD10ENG",
                            "id": "MTHU057222"
                          },
                          {
                            "dataSource": "LCH",
                            "id": "U003458"
                          },
                          {
                            "dataSource": "LCH_NW",
                            "id": "sh85097438"
                          },
                          {
                            "dataSource": "MDR",
                            "id": "10033670"
                          },
                          {
                            "dataSource": "MSH",
                            "id": "D010200"
                          },
                          {
                            "dataSource": "MTH",
                            "id": "551"
                          },
                          {
                            "dataSource": "MTHICD9",
                            "id": "300.01"
                          },
                          {
                            "dataSource": "NCI",
                            "id": "C94438"
                          },
                          {
                            "dataSource": "NCI_NCI-GLOSS",
                            "id": "CDR0000454704"
                          },
                          {
                            "dataSource": "NOC",
                            "id": "121346"
                          },
                          {
                            "dataSource": "PSY",
                            "id": "36260"
                          },
                          {
                            "dataSource": "RCD",
                            "id": "Xa3Vj"
                          },
                          {
                            "dataSource": "SNM",
                            "id": "F-90880"
                          },
                          {
                            "dataSource": "SNMI",
                            "id": "F-92560"
                          },
                          {
                            "dataSource": "SNOMEDCT_US",
                            "id": "79823003"
                          },
                          {
                            "dataSource": "WHO",
                            "id": "0163"
                          }
                        ]
                      },
                      {
                        "offset": 57,
                        "length": 9,
                        "text": "psychosis",
                        "category": "Diagnosis",
                        "confidenceScore": 0.99,
                        "name": "Psychotic Disorders",
                        "links": [
                          {
                            "dataSource": "UMLS",
                            "id": "C0033975"
                          },
                          {
                            "dataSource": "AIR",
                            "id": "PSYCH"
                          },
                          {
                            "dataSource": "AOD",
                            "id": "0000004324"
                          },
                          {
                            "dataSource": "BI",
                            "id": "BI00688"
                          },
                          {
                            "dataSource": "CCPSS",
                            "id": "1018204"
                          },
                          {
                            "dataSource": "CHV",
                            "id": "0000010350"
                          },
                          {
                            "dataSource": "COSTAR",
                            "id": "089"
                          },
                          {
                            "dataSource": "CSP",
                            "id": "2484-8182"
                          },
                          {
                            "dataSource": "CST",
                            "id": "PSYCHOSIS"
                          },
                          {
                            "dataSource": "DXP",
                            "id": "U003257"
                          },
                          {
                            "dataSource": "HPO",
                            "id": "HP:0000709"
                          },
                          {
                            "dataSource": "ICD9CM",
                            "id": "298.9"
                          },
                          {
                            "dataSource": "ICPC2ICD10ENG",
                            "id": "MTHU070382"
                          },
                          {
                            "dataSource": "ICPC2P",
                            "id": "P98004"
                          },
                          {
                            "dataSource": "LCH_NW",
                            "id": "sh85108502"
                          },
                          {
                            "dataSource": "LNC",
                            "id": "LA7534-6"
                          },
                          {
                            "dataSource": "MDR",
                            "id": "10061920"
                          },
                          {
                            "dataSource": "MEDCIN",
                            "id": "364298"
                          },
                          {
                            "dataSource": "MEDLINEPLUS",
                            "id": "4180"
                          },
                          {
                            "dataSource": "MSH",
                            "id": "D011618"
                          },
                          {
                            "dataSource": "MTH",
                            "id": "089"
                          },
                          {
                            "dataSource": "MTHICD9",
                            "id": "298.9"
                          },
                          {
                            "dataSource": "NANDA-I",
                            "id": "03128"
                          },
                          {
                            "dataSource": "NCI",
                            "id": "C78576"
                          },
                          {
                            "dataSource": "NCI_CELLOSAURUS",
                            "id": "C78576"
                          },
                          {
                            "dataSource": "NCI_CTCAE",
                            "id": "E12954"
                          },
                          {
                            "dataSource": "NCI_NCI-GLOSS",
                            "id": "CDR0000450115"
                          },
                          {
                            "dataSource": "NCI_NICHD",
                            "id": "C78576"
                          },
                          {
                            "dataSource": "NOC",
                            "id": "061619"
                          },
                          {
                            "dataSource": "OMIM",
                            "id": "MTHU002910"
                          },
                          {
                            "dataSource": "PSY",
                            "id": "41910"
                          },
                          {
                            "dataSource": "QMR",
                            "id": "Q0200208"
                          },
                          {
                            "dataSource": "RCD",
                            "id": "X00S6"
                          },
                          {
                            "dataSource": "SNM",
                            "id": "D-9200"
                          },
                          {
                            "dataSource": "SNMI",
                            "id": "D9-72000"
                          },
                          {
                            "dataSource": "SNOMEDCT_US",
                            "id": "69322001"
                          },
                          {
                            "dataSource": "WHO",
                            "id": "0193"
                          }
                        ]
                      },
                      {
                        "offset": 72,
                        "length": 13,
                        "text": "heart failure",
                        "category": "Diagnosis",
                        "confidenceScore": 1.0,
                        "name": "Heart failure",
                        "links": [
                          {
                            "dataSource": "UMLS",
                            "id": "C0018801"
                          },
                          {
                            "dataSource": "AOD",
                            "id": "0000005308"
                          },
                          {
                            "dataSource": "BI",
                            "id": "BI00019"
                          },
                          {
                            "dataSource": "CCPSS",
                            "id": "0017571"
                          },
                          {
                            "dataSource": "CCS",
                            "id": "7.2.11.2"
                          },
                          {
                            "dataSource": "CCSR_10",
                            "id": "CIR019"
                          },
                          {
                            "dataSource": "CCSR_ICD10CM",
                            "id": "CIR019"
                          },
                          {
                            "dataSource": "CHV",
                            "id": "0000005877"
                          },
                          {
                            "dataSource": "COSTAR",
                            "id": "U000338"
                          },
                          {
                            "dataSource": "CSP",
                            "id": "1393-3587"
                          },
                          {
                            "dataSource": "CST",
                            "id": "HEART FAIL"
                          },
                          {
                            "dataSource": "HPO",
                            "id": "HP:0001635"
                          },
                          {
                            "dataSource": "ICD10",
                            "id": "I50.9"
                          },
                          {
                            "dataSource": "ICD10AM",
                            "id": "I50.9"
                          },
                          {
                            "dataSource": "ICD10CM",
                            "id": "I50.9"
                          },
                          {
                            "dataSource": "ICD9CM",
                            "id": "428.9"
                          },
                          {
                            "dataSource": "ICPC",
                            "id": "K77"
                          },
                          {
                            "dataSource": "ICPC2EENG",
                            "id": "K77"
                          },
                          {
                            "dataSource": "ICPC2ICD10ENG",
                            "id": "MTHU027668"
                          },
                          {
                            "dataSource": "ICPC2P",
                            "id": "K77011"
                          },
                          {
                            "dataSource": "LCH",
                            "id": "U005616"
                          },
                          {
                            "dataSource": "LCH_NW",
                            "id": "sh85059745"
                          },
                          {
                            "dataSource": "LNC",
                            "id": "LP269421-6"
                          },
                          {
                            "dataSource": "MDR",
                            "id": "10007554"
                          },
                          {
                            "dataSource": "MEDCIN",
                            "id": "95724"
                          },
                          {
                            "dataSource": "MEDLINEPLUS",
                            "id": "199"
                          },
                          {
                            "dataSource": "MSH",
                            "id": "D006333"
                          },
                          {
                            "dataSource": "MTHICD9",
                            "id": "428.9"
                          },
                          {
                            "dataSource": "NCI",
                            "id": "C50577"
                          },
                          {
                            "dataSource": "NCI_CTCAE",
                            "id": "E10124"
                          },
                          {
                            "dataSource": "NCI_FDA",
                            "id": "2206"
                          },
                          {
                            "dataSource": "NCI_NICHD",
                            "id": "C50577"
                          },
                          {
                            "dataSource": "NCI_PCDC",
                            "id": "C50577"
                          },
                          {
                            "dataSource": "OMIM",
                            "id": "MTHU009472"
                          },
                          {
                            "dataSource": "RCD",
                            "id": "G58.."
                          },
                          {
                            "dataSource": "SNM",
                            "id": "D-7050"
                          },
                          {
                            "dataSource": "SNMI",
                            "id": "D3-16000"
                          },
                          {
                            "dataSource": "SNOMEDCT_US",
                            "id": "84114007"
                          },
                          {
                            "dataSource": "WHO",
                            "id": "0496"
                          }
                        ]
                      }
                    ],
                    "relations": [],
                    "warnings": [],
                    "fhirBundle": {
                      "resourceType": "Bundle",
                      "id": "26ccd0a3-f4ae-4233-8803-d3c2f77cc9cf",
                      "meta": {
                        "profile": [
                          "http://hl7.org/fhir/4.0.1/StructureDefinition/Bundle"
                        ]
                      },
                      "identifier": {
                        "system": "urn:ietf:rfc:3986",
                        "value": "urn:uuid:26ccd0a3-f4ae-4233-8803-d3c2f77cc9cf"
                      },
                      "type": "document",
                      "entry": [
                        {
                          "fullUrl": "Composition/facfd13f-1556-41ba-a507-f1e545b0392c",
                          "resource": {
                            "resourceType": "Composition",
                            "id": "facfd13f-1556-41ba-a507-f1e545b0392c",
                            "status": "final",
                            "type": {
                              "coding": [
                                {
                                  "system": "http://loinc.org",
                                  "code": "11526-1",
                                  "display": "Pathology study"
                                }
                              ],
                              "text": "Pathology study"
                            },
                            "subject": {
                              "reference": "Patient/f1798119-cb82-4213-be11-3adede70458a",
                              "type": "Patient"
                            },
                            "encounter": {
                              "reference": "Encounter/182cecd7-bbda-4af5-84a6-0ac41d4565c5",
                              "type": "Encounter",
                              "display": "unknown"
                            },
                            "date": "2022-05-16",
                            "author": [
                              {
                                "reference": "Practitioner/aeb0da3f-d9b4-42e2-9097-73cdb487b519",
                                "type": "Practitioner",
                                "display": "Unknown"
                              }
                            ],
                            "title": "Pathology study",
                            "section": [
                              {
                                "title": "General",
                                "code": {
                                  "coding": [
                                    {
                                      "system": "",
                                      "display": "Unrecognized Section"
                                    }
                                  ],
                                  "text": "General"
                                },
                                "text": {
                                  "div": "\u003Cdiv\u003E\r\n\t\t\t\t\t\t\t\u003Ch1\u003EGeneral\u003C/h1\u003E\r\n\t\t\t\t\t\t\t\u003Cp\u003ECan cause rapid or irregular heartbeat, delirium, panic, psychosis, and heart failure.\u003C/p\u003E\r\n\t\t\t\t\t\u003C/div\u003E"
                                },
                                "entry": [
                                  {
                                    "reference": "List/d0bda484-124f-4336-9fcc-92b77ab946f7",
                                    "type": "List",
                                    "display": "General"
                                  }
                                ]
                              }
                            ]
                          }
                        },
                        {
                          "fullUrl": "Practitioner/aeb0da3f-d9b4-42e2-9097-73cdb487b519",
                          "resource": {
                            "resourceType": "Practitioner",
                            "id": "aeb0da3f-d9b4-42e2-9097-73cdb487b519",
                            "extension": [
                              {
                                "extension": [
                                  {
                                    "url": "offset",
                                    "valueInteger": -1
                                  },
                                  {
                                    "url": "length",
                                    "valueInteger": 7
                                  }
                                ],
                                "url": "http://hl7.org/fhir/StructureDefinition/derivation-reference"
                              }
                            ],
                            "name": [
                              {
                                "text": "Unknown",
                                "family": "Unknown"
                              }
                            ]
                          }
                        },
                        {
                          "fullUrl": "Patient/f1798119-cb82-4213-be11-3adede70458a",
                          "resource": {
                            "resourceType": "Patient",
                            "id": "f1798119-cb82-4213-be11-3adede70458a",
                            "gender": "unknown"
                          }
                        },
                        {
                          "fullUrl": "Encounter/182cecd7-bbda-4af5-84a6-0ac41d4565c5",
                          "resource": {
                            "resourceType": "Encounter",
                            "id": "182cecd7-bbda-4af5-84a6-0ac41d4565c5",
                            "meta": {
                              "profile": [
                                "http://hl7.org/fhir/us/core/StructureDefinition/us-core-encounter"
                              ]
                            },
                            "status": "finished",
                            "class": {
                              "system": "http://terminology.hl7.org/CodeSystem/v3-ActCode",
                              "display": "unknown"
                            },
                            "subject": {
                              "reference": "Patient/f1798119-cb82-4213-be11-3adede70458a",
                              "type": "Patient"
                            }
                          }
                        },
                        {
                          "fullUrl": "Condition/75c380b2-a73c-4a57-8e33-2f16ac5cf095",
                          "resource": {
                            "resourceType": "Condition",
                            "id": "75c380b2-a73c-4a57-8e33-2f16ac5cf095",
                            "meta": {
                              "profile": [
                                "http://hl7.org/fhir/us/core/StructureDefinition/us-core-condition"
                              ]
                            },
                            "extension": [
                              {
                                "extension": [
                                  {
                                    "url": "offset",
                                    "valueInteger": 40
                                  },
                                  {
                                    "url": "length",
                                    "valueInteger": 8
                                  }
                                ],
                                "url": "http://hl7.org/fhir/StructureDefinition/derivation-reference"
                              }
                            ],
                            "verificationStatus": {
                              "coding": [
                                {
                                  "system": "http://terminology.hl7.org/CodeSystem/condition-ver-status",
                                  "code": "confirmed",
                                  "display": "Confirmed"
                                }
                              ],
                              "text": "Confirmed"
                            },
                            "category": [
                              {
                                "coding": [
                                  {
                                    "system": "http://terminology.hl7.org/CodeSystem/condition-category",
                                    "code": "encounter-diagnosis",
                                    "display": "Encounter Diagnosis"
                                  }
                                ],
                                "text": "Encounter Diagnosis"
                              }
                            ],
                            "code": {
                              "coding": [
                                {
                                  "system": "http://www.nlm.nih.gov/research/umls",
                                  "code": "C0011206",
                                  "display": "delirium"
                                },
                                {
                                  "system": "http://www.nlm.nih.gov/research/umls/aod",
                                  "code": "0000004328"
                                },
                                {
                                  "system": "http://www.nlm.nih.gov/research/umls/ccpss",
                                  "code": "1017884"
                                },
                                {
                                  "system": "http://www.nlm.nih.gov/research/umls/chv",
                                  "code": "0000003670"
                                },
                                {
                                  "system": "http://www.nlm.nih.gov/research/umls/costar",
                                  "code": "U000178"
                                },
                                {
                                  "system": "http://www.nlm.nih.gov/research/umls/csp",
                                  "code": "5003-0016"
                                },
                                {
                                  "system": "http://www.nlm.nih.gov/research/umls/cst",
                                  "code": "DELIRIUM"
                                },
                                {
                                  "system": "http://hl7.org/fhir/sid/dsm5",
                                  "code": "780.09"
                                },
                                {
                                  "system": "http://www.nlm.nih.gov/research/umls/dxp",
                                  "code": "U000937"
                                },
                                {
                                  "system": "http://www.nlm.nih.gov/research/umls/hpo",
                                  "code": "HP:0031258"
                                },
                                {
                                  "system": "http://hl7.org/fhir/sid/icd-10",
                                  "code": "F05.9"
                                },
                                {
                                  "system": "http://hl7.org/fhir/sid/icd-10-am",
                                  "code": "F05.9"
                                },
                                {
                                  "system": "http://hl7.org/fhir/sid/icd-10-cm",
                                  "code": "R41.0"
                                },
                                {
                                  "system": "http://www.nlm.nih.gov/research/umls/icnp",
                                  "code": "10022091"
                                },
                                {
                                  "system": "http://hl7.org/fhir/sid/icpc2icd10eng",
                                  "code": "MTHU022150"
                                },
                                {
                                  "system": "http://www.nlm.nih.gov/research/umls/lch",
                                  "code": "U001289"
                                },
                                {
                                  "system": "http://www.nlm.nih.gov/research/umls/lch_nw",
                                  "code": "sh85036579"
                                },
                                {
                                  "system": "http://loinc.org",
                                  "code": "LP89856-6"
                                },
                                {
                                  "system": "http://www.nlm.nih.gov/research/umls/mdr",
                                  "code": "10012218"
                                },
                                {
                                  "system": "http://www.nlm.nih.gov/research/umls/medcin",
                                  "code": "677"
                                },
                                {
                                  "system": "http://www.nlm.nih.gov/research/umls/medlineplus",
                                  "code": "5562"
                                },
                                {
                                  "system": "http://www.nlm.nih.gov/research/umls/msh",
                                  "code": "D003693"
                                },
                                {
                                  "system": "http://www.nlm.nih.gov/research/umls/nanda-i",
                                  "code": "02157"
                                },
                                {
                                  "system": "http://ncimeta.nci.nih.gov",
                                  "code": "C2981"
                                },
                                {
                                  "system": "http://www.nlm.nih.gov/research/umls/nci_ctcae",
                                  "code": "E12898"
                                },
                                {
                                  "system": "http://www.nlm.nih.gov/research/umls/nci_ctrp",
                                  "code": "C2981"
                                },
                                {
                                  "system": "http://www.nlm.nih.gov/research/umls/nci_nci-gloss",
                                  "code": "CDR0000450100"
                                },
                                {
                                  "system": "http://www.nlm.nih.gov/research/umls/nci_nichd",
                                  "code": "C2981"
                                },
                                {
                                  "system": "http://www.nlm.nih.gov/research/umls/nci_cadsr",
                                  "code": "C2981"
                                },
                                {
                                  "system": "http://www.nlm.nih.gov/research/umls/noc",
                                  "code": "091213"
                                },
                                {
                                  "system": "http://www.nlm.nih.gov/research/umls/omim",
                                  "code": "MTHU035152"
                                },
                                {
                                  "system": "http://www.nlm.nih.gov/research/umls/pdq",
                                  "code": "CDR0000042226"
                                },
                                {
                                  "system": "http://www.nlm.nih.gov/research/umls/psy",
                                  "code": "13360"
                                },
                                {
                                  "system": "http://www.nlm.nih.gov/research/umls/qmr",
                                  "code": "Q0200089"
                                },
                                {
                                  "system": "http://www.nlm.nih.gov/research/umls/rcd",
                                  "code": "XE1Xv"
                                },
                                {
                                  "system": "http://snomed.info/sct",
                                  "code": "F-85720"
                                },
                                {
                                  "system": "http://snomed.info/sct/900000000000207008",
                                  "code": "D9-20100"
                                },
                                {
                                  "system": "http://snomed.info/sct/731000124108",
                                  "code": "2776000"
                                },
                                {
                                  "system": "http://www.nlm.nih.gov/research/umls/who",
                                  "code": "0099"
                                }
                              ],
                              "text": "delirium"
                            },
                            "subject": {
                              "reference": "Patient/f1798119-cb82-4213-be11-3adede70458a",
                              "type": "Patient"
                            },
                            "encounter": {
                              "reference": "Encounter/182cecd7-bbda-4af5-84a6-0ac41d4565c5",
                              "type": "Encounter",
                              "display": "unknown"
                            }
                          }
                        },
                        {
                          "fullUrl": "Condition/1e012874-65d8-48e4-9c9b-eeeaf73475dc",
                          "resource": {
                            "resourceType": "Condition",
                            "id": "1e012874-65d8-48e4-9c9b-eeeaf73475dc",
                            "meta": {
                              "profile": [
                                "http://hl7.org/fhir/us/core/StructureDefinition/us-core-condition"
                              ]
                            },
                            "extension": [
                              {
                                "extension": [
                                  {
                                    "url": "offset",
                                    "valueInteger": 50
                                  },
                                  {
                                    "url": "length",
                                    "valueInteger": 5
                                  }
                                ],
                                "url": "http://hl7.org/fhir/StructureDefinition/derivation-reference"
                              }
                            ],
                            "verificationStatus": {
                              "coding": [
                                {
                                  "system": "http://terminology.hl7.org/CodeSystem/condition-ver-status",
                                  "code": "confirmed",
                                  "display": "Confirmed"
                                }
                              ],
                              "text": "Confirmed"
                            },
                            "category": [
                              {
                                "coding": [
                                  {
                                    "system": "http://terminology.hl7.org/CodeSystem/condition-category",
                                    "code": "encounter-diagnosis",
                                    "display": "Encounter Diagnosis"
                                  }
                                ],
                                "text": "Encounter Diagnosis"
                              }
                            ],
                            "code": {
                              "coding": [
                                {
                                  "system": "http://www.nlm.nih.gov/research/umls",
                                  "code": "C0030318",
                                  "display": "panic"
                                },
                                {
                                  "system": "http://www.nlm.nih.gov/research/umls/aod",
                                  "code": "0000023911"
                                },
                                {
                                  "system": "http://www.nlm.nih.gov/research/umls/chv",
                                  "code": "0000009234"
                                },
                                {
                                  "system": "http://www.nlm.nih.gov/research/umls/cst",
                                  "code": "AGITATION"
                                },
                                {
                                  "system": "http://hl7.org/fhir/sid/icd-10-cm",
                                  "code": "F41.0"
                                },
                                {
                                  "system": "http://hl7.org/fhir/sid/icpc2icd10eng",
                                  "code": "MTHU057222"
                                },
                                {
                                  "system": "http://www.nlm.nih.gov/research/umls/lch",
                                  "code": "U003458"
                                },
                                {
                                  "system": "http://www.nlm.nih.gov/research/umls/lch_nw",
                                  "code": "sh85097438"
                                },
                                {
                                  "system": "http://www.nlm.nih.gov/research/umls/mdr",
                                  "code": "10033670"
                                },
                                {
                                  "system": "http://www.nlm.nih.gov/research/umls/msh",
                                  "code": "D010200"
                                },
                                {
                                  "system": "http://www.nlm.nih.gov/research/umls/mth",
                                  "code": "551"
                                },
                                {
                                  "system": "http://www.nlm.nih.gov/research/umls/mthicd9",
                                  "code": "300.01"
                                },
                                {
                                  "system": "http://ncimeta.nci.nih.gov",
                                  "code": "C94438"
                                },
                                {
                                  "system": "http://www.nlm.nih.gov/research/umls/nci_nci-gloss",
                                  "code": "CDR0000454704"
                                },
                                {
                                  "system": "http://www.nlm.nih.gov/research/umls/noc",
                                  "code": "121346"
                                },
                                {
                                  "system": "http://www.nlm.nih.gov/research/umls/psy",
                                  "code": "36260"
                                },
                                {
                                  "system": "http://www.nlm.nih.gov/research/umls/rcd",
                                  "code": "Xa3Vj"
                                },
                                {
                                  "system": "http://snomed.info/sct",
                                  "code": "F-90880"
                                },
                                {
                                  "system": "http://snomed.info/sct/900000000000207008",
                                  "code": "F-92560"
                                },
                                {
                                  "system": "http://snomed.info/sct/731000124108",
                                  "code": "79823003"
                                },
                                {
                                  "system": "http://www.nlm.nih.gov/research/umls/who",
                                  "code": "0163"
                                }
                              ],
                              "text": "panic"
                            },
                            "subject": {
                              "reference": "Patient/f1798119-cb82-4213-be11-3adede70458a",
                              "type": "Patient"
                            },
                            "encounter": {
                              "reference": "Encounter/182cecd7-bbda-4af5-84a6-0ac41d4565c5",
                              "type": "Encounter",
                              "display": "unknown"
                            }
                          }
                        },
                        {
                          "fullUrl": "Condition/6bce38f5-aaa8-4e2f-966d-84a5c904cfb2",
                          "resource": {
                            "resourceType": "Condition",
                            "id": "6bce38f5-aaa8-4e2f-966d-84a5c904cfb2",
                            "meta": {
                              "profile": [
                                "http://hl7.org/fhir/us/core/StructureDefinition/us-core-condition"
                              ]
                            },
                            "extension": [
                              {
                                "extension": [
                                  {
                                    "url": "offset",
                                    "valueInteger": 57
                                  },
                                  {
                                    "url": "length",
                                    "valueInteger": 9
                                  }
                                ],
                                "url": "http://hl7.org/fhir/StructureDefinition/derivation-reference"
                              }
                            ],
                            "verificationStatus": {
                              "coding": [
                                {
                                  "system": "http://terminology.hl7.org/CodeSystem/condition-ver-status",
                                  "code": "confirmed",
                                  "display": "Confirmed"
                                }
                              ],
                              "text": "Confirmed"
                            },
                            "category": [
                              {
                                "coding": [
                                  {
                                    "system": "http://terminology.hl7.org/CodeSystem/condition-category",
                                    "code": "encounter-diagnosis",
                                    "display": "Encounter Diagnosis"
                                  }
                                ],
                                "text": "Encounter Diagnosis"
                              }
                            ],
                            "code": {
                              "coding": [
                                {
                                  "system": "http://www.nlm.nih.gov/research/umls",
                                  "code": "C0033975",
                                  "display": "psychosis"
                                },
                                {
                                  "system": "http://www.nlm.nih.gov/research/umls/air",
                                  "code": "PSYCH"
                                },
                                {
                                  "system": "http://www.nlm.nih.gov/research/umls/aod",
                                  "code": "0000004324"
                                },
                                {
                                  "system": "http://www.nlm.nih.gov/research/umls/bi",
                                  "code": "BI00688"
                                },
                                {
                                  "system": "http://www.nlm.nih.gov/research/umls/ccpss",
                                  "code": "1018204"
                                },
                                {
                                  "system": "http://www.nlm.nih.gov/research/umls/chv",
                                  "code": "0000010350"
                                },
                                {
                                  "system": "http://www.nlm.nih.gov/research/umls/costar",
                                  "code": "089"
                                },
                                {
                                  "system": "http://www.nlm.nih.gov/research/umls/csp",
                                  "code": "2484-8182"
                                },
                                {
                                  "system": "http://www.nlm.nih.gov/research/umls/cst",
                                  "code": "PSYCHOSIS"
                                },
                                {
                                  "system": "http://www.nlm.nih.gov/research/umls/dxp",
                                  "code": "U003257"
                                },
                                {
                                  "system": "http://www.nlm.nih.gov/research/umls/hpo",
                                  "code": "HP:0000709"
                                },
                                {
                                  "system": "http://hl7.org/fhir/sid/icd-9-cm",
                                  "code": "298.9"
                                },
                                {
                                  "system": "http://hl7.org/fhir/sid/icpc2icd10eng",
                                  "code": "MTHU070382"
                                },
                                {
                                  "system": "http://hl7.org/fhir/sid/icpc-2p",
                                  "code": "P98004"
                                },
                                {
                                  "system": "http://www.nlm.nih.gov/research/umls/lch_nw",
                                  "code": "sh85108502"
                                },
                                {
                                  "system": "http://loinc.org",
                                  "code": "LA7534-6"
                                },
                                {
                                  "system": "http://www.nlm.nih.gov/research/umls/mdr",
                                  "code": "10061920"
                                },
                                {
                                  "system": "http://www.nlm.nih.gov/research/umls/medcin",
                                  "code": "364298"
                                },
                                {
                                  "system": "http://www.nlm.nih.gov/research/umls/medlineplus",
                                  "code": "4180"
                                },
                                {
                                  "system": "http://www.nlm.nih.gov/research/umls/msh",
                                  "code": "D011618"
                                },
                                {
                                  "system": "http://www.nlm.nih.gov/research/umls/mth",
                                  "code": "089"
                                },
                                {
                                  "system": "http://www.nlm.nih.gov/research/umls/mthicd9",
                                  "code": "298.9"
                                },
                                {
                                  "system": "http://www.nlm.nih.gov/research/umls/nanda-i",
                                  "code": "03128"
                                },
                                {
                                  "system": "http://ncimeta.nci.nih.gov",
                                  "code": "C78576"
                                },
                                {
                                  "system": "http://www.nlm.nih.gov/research/umls/nci_cellosaurus",
                                  "code": "C78576"
                                },
                                {
                                  "system": "http://www.nlm.nih.gov/research/umls/nci_ctcae",
                                  "code": "E12954"
                                },
                                {
                                  "system": "http://www.nlm.nih.gov/research/umls/nci_nci-gloss",
                                  "code": "CDR0000450115"
                                },
                                {
                                  "system": "http://www.nlm.nih.gov/research/umls/nci_nichd",
                                  "code": "C78576"
                                },
                                {
                                  "system": "http://www.nlm.nih.gov/research/umls/noc",
                                  "code": "061619"
                                },
                                {
                                  "system": "http://www.nlm.nih.gov/research/umls/omim",
                                  "code": "MTHU002910"
                                },
                                {
                                  "system": "http://www.nlm.nih.gov/research/umls/psy",
                                  "code": "41910"
                                },
                                {
                                  "system": "http://www.nlm.nih.gov/research/umls/qmr",
                                  "code": "Q0200208"
                                },
                                {
                                  "system": "http://www.nlm.nih.gov/research/umls/rcd",
                                  "code": "X00S6"
                                },
                                {
                                  "system": "http://snomed.info/sct",
                                  "code": "D-9200"
                                },
                                {
                                  "system": "http://snomed.info/sct/900000000000207008",
                                  "code": "D9-72000"
                                },
                                {
                                  "system": "http://snomed.info/sct/731000124108",
                                  "code": "69322001"
                                },
                                {
                                  "system": "http://www.nlm.nih.gov/research/umls/who",
                                  "code": "0193"
                                }
                              ],
                              "text": "psychosis"
                            },
                            "subject": {
                              "reference": "Patient/f1798119-cb82-4213-be11-3adede70458a",
                              "type": "Patient"
                            },
                            "encounter": {
                              "reference": "Encounter/182cecd7-bbda-4af5-84a6-0ac41d4565c5",
                              "type": "Encounter",
                              "display": "unknown"
                            }
                          }
                        },
                        {
                          "fullUrl": "Condition/4d3f63ac-709f-4af9-87d1-2cc68cab4586",
                          "resource": {
                            "resourceType": "Condition",
                            "id": "4d3f63ac-709f-4af9-87d1-2cc68cab4586",
                            "meta": {
                              "profile": [
                                "http://hl7.org/fhir/us/core/StructureDefinition/us-core-condition"
                              ]
                            },
                            "extension": [
                              {
                                "extension": [
                                  {
                                    "url": "offset",
                                    "valueInteger": 72
                                  },
                                  {
                                    "url": "length",
                                    "valueInteger": 13
                                  }
                                ],
                                "url": "http://hl7.org/fhir/StructureDefinition/derivation-reference"
                              }
                            ],
                            "verificationStatus": {
                              "coding": [
                                {
                                  "system": "http://terminology.hl7.org/CodeSystem/condition-ver-status",
                                  "code": "confirmed",
                                  "display": "Confirmed"
                                }
                              ],
                              "text": "Confirmed"
                            },
                            "category": [
                              {
                                "coding": [
                                  {
                                    "system": "http://terminology.hl7.org/CodeSystem/condition-category",
                                    "code": "encounter-diagnosis",
                                    "display": "Encounter Diagnosis"
                                  }
                                ],
                                "text": "Encounter Diagnosis"
                              }
                            ],
                            "code": {
                              "coding": [
                                {
                                  "system": "http://www.nlm.nih.gov/research/umls",
                                  "code": "C0018801",
                                  "display": "heart failure"
                                },
                                {
                                  "system": "http://www.nlm.nih.gov/research/umls/aod",
                                  "code": "0000005308"
                                },
                                {
                                  "system": "http://www.nlm.nih.gov/research/umls/bi",
                                  "code": "BI00019"
                                },
                                {
                                  "system": "http://www.nlm.nih.gov/research/umls/ccpss",
                                  "code": "0017571"
                                },
                                {
                                  "system": "http://www.nlm.nih.gov/research/umls/ccs",
                                  "code": "7.2.11.2"
                                },
                                {
                                  "system": "http://www.nlm.nih.gov/research/umls/ccsr_10",
                                  "code": "CIR019"
                                },
                                {
                                  "system": "http://www.nlm.nih.gov/research/umls/ccsr_icd10cm",
                                  "code": "CIR019"
                                },
                                {
                                  "system": "http://www.nlm.nih.gov/research/umls/chv",
                                  "code": "0000005877"
                                },
                                {
                                  "system": "http://www.nlm.nih.gov/research/umls/costar",
                                  "code": "U000338"
                                },
                                {
                                  "system": "http://www.nlm.nih.gov/research/umls/csp",
                                  "code": "1393-3587"
                                },
                                {
                                  "system": "http://www.nlm.nih.gov/research/umls/cst",
                                  "code": "HEART FAIL"
                                },
                                {
                                  "system": "http://www.nlm.nih.gov/research/umls/hpo",
                                  "code": "HP:0001635"
                                },
                                {
                                  "system": "http://hl7.org/fhir/sid/icd-10",
                                  "code": "I50.9"
                                },
                                {
                                  "system": "http://hl7.org/fhir/sid/icd-10-am",
                                  "code": "I50.9"
                                },
                                {
                                  "system": "http://hl7.org/fhir/sid/icd-10-cm",
                                  "code": "I50.9"
                                },
                                {
                                  "system": "http://hl7.org/fhir/sid/icd-9-cm",
                                  "code": "428.9"
                                },
                                {
                                  "system": "http://www.nlm.nih.gov/research/umls/icpc",
                                  "code": "K77"
                                },
                                {
                                  "system": "http://www.nlm.nih.gov/research/umls/icpc2eeng",
                                  "code": "K77"
                                },
                                {
                                  "system": "http://hl7.org/fhir/sid/icpc2icd10eng",
                                  "code": "MTHU027668"
                                },
                                {
                                  "system": "http://hl7.org/fhir/sid/icpc-2p",
                                  "code": "K77011"
                                },
                                {
                                  "system": "http://www.nlm.nih.gov/research/umls/lch",
                                  "code": "U005616"
                                },
                                {
                                  "system": "http://www.nlm.nih.gov/research/umls/lch_nw",
                                  "code": "sh85059745"
                                },
                                {
                                  "system": "http://loinc.org",
                                  "code": "LP269421-6"
                                },
                                {
                                  "system": "http://www.nlm.nih.gov/research/umls/mdr",
                                  "code": "10007554"
                                },
                                {
                                  "system": "http://www.nlm.nih.gov/research/umls/medcin",
                                  "code": "95724"
                                },
                                {
                                  "system": "http://www.nlm.nih.gov/research/umls/medlineplus",
                                  "code": "199"
                                },
                                {
                                  "system": "http://www.nlm.nih.gov/research/umls/msh",
                                  "code": "D006333"
                                },
                                {
                                  "system": "http://www.nlm.nih.gov/research/umls/mthicd9",
                                  "code": "428.9"
                                },
                                {
                                  "system": "http://ncimeta.nci.nih.gov",
                                  "code": "C50577"
                                },
                                {
                                  "system": "http://www.nlm.nih.gov/research/umls/nci_ctcae",
                                  "code": "E10124"
                                },
                                {
                                  "system": "http://www.nlm.nih.gov/research/umls/nci_fda",
                                  "code": "2206"
                                },
                                {
                                  "system": "http://www.nlm.nih.gov/research/umls/nci_nichd",
                                  "code": "C50577"
                                },
                                {
                                  "system": "http://www.nlm.nih.gov/research/umls/nci_pcdc",
                                  "code": "C50577"
                                },
                                {
                                  "system": "http://www.nlm.nih.gov/research/umls/omim",
                                  "code": "MTHU009472"
                                },
                                {
                                  "system": "http://www.nlm.nih.gov/research/umls/rcd",
                                  "code": "G58.."
                                },
                                {
                                  "system": "http://snomed.info/sct",
                                  "code": "D-7050"
                                },
                                {
                                  "system": "http://snomed.info/sct/900000000000207008",
                                  "code": "D3-16000"
                                },
                                {
                                  "system": "http://snomed.info/sct/731000124108",
                                  "code": "84114007"
                                },
                                {
                                  "system": "http://www.nlm.nih.gov/research/umls/who",
                                  "code": "0496"
                                }
                              ],
                              "text": "heart failure"
                            },
                            "subject": {
                              "reference": "Patient/f1798119-cb82-4213-be11-3adede70458a",
                              "type": "Patient"
                            },
                            "encounter": {
                              "reference": "Encounter/182cecd7-bbda-4af5-84a6-0ac41d4565c5",
                              "type": "Encounter",
                              "display": "unknown"
                            }
                          }
                        },
                        {
                          "fullUrl": "Observation/b3b231a5-acf4-49e2-b01f-0b8b0bef5fe5",
                          "resource": {
                            "resourceType": "Observation",
                            "id": "b3b231a5-acf4-49e2-b01f-0b8b0bef5fe5",
                            "extension": [
                              {
                                "extension": [
                                  {
                                    "url": "offset",
                                    "valueInteger": 10
                                  },
                                  {
                                    "url": "length",
                                    "valueInteger": 5
                                  }
                                ],
                                "url": "http://hl7.org/fhir/StructureDefinition/derivation-reference"
                              }
                            ],
                            "status": "final",
                            "category": [
                              {
                                "coding": [
                                  {
                                    "system": "http://terminology.hl7.org/CodeSystem/observation-category",
                                    "code": "exam",
                                    "display": "Exam"
                                  }
                                ],
                                "text": "Exam"
                              }
                            ],
                            "code": {
                              "coding": [
                                {
                                  "system": "http://www.nlm.nih.gov/research/umls",
                                  "code": "C0456962",
                                  "display": "rapid"
                                },
                                {
                                  "system": "http://www.nlm.nih.gov/research/umls/aod",
                                  "code": "0000002744"
                                },
                                {
                                  "system": "http://www.nlm.nih.gov/research/umls/chv",
                                  "code": "0000034666"
                                },
                                {
                                  "system": "http://loinc.org",
                                  "code": "LA24868-4"
                                },
                                {
                                  "system": "http://ncimeta.nci.nih.gov",
                                  "code": "C65069"
                                },
                                {
                                  "system": "http://www.nlm.nih.gov/research/umls/rcd",
                                  "code": "X78xZ"
                                },
                                {
                                  "system": "http://snomed.info/sct/731000124108",
                                  "code": "255358001"
                                }
                              ],
                              "text": "rapid"
                            },
                            "subject": {
                              "reference": "Patient/f1798119-cb82-4213-be11-3adede70458a",
                              "type": "Patient"
                            },
                            "encounter": {
                              "reference": "Encounter/182cecd7-bbda-4af5-84a6-0ac41d4565c5",
                              "type": "Encounter",
                              "display": "unknown"
                            },
                            "interpretation": [
                              {
                                "coding": [
                                  {
                                    "system": "http://terminology.hl7.org/CodeSystem/v3-ObservationInterpretation",
                                    "code": "POS",
                                    "display": "Positive"
                                  }
                                ],
                                "text": "Positive"
                              }
                            ]
                          }
                        },
                        {
                          "fullUrl": "Observation/d05e105a-2936-47f2-a0e4-58dbb336a0e4",
                          "resource": {
                            "resourceType": "Observation",
                            "id": "d05e105a-2936-47f2-a0e4-58dbb336a0e4",
                            "extension": [
                              {
                                "extension": [
                                  {
                                    "url": "offset",
                                    "valueInteger": 19
                                  },
                                  {
                                    "url": "length",
                                    "valueInteger": 19
                                  }
                                ],
                                "url": "http://hl7.org/fhir/StructureDefinition/derivation-reference"
                              }
                            ],
                            "status": "final",
                            "category": [
                              {
                                "coding": [
                                  {
                                    "system": "http://terminology.hl7.org/CodeSystem/observation-category",
                                    "code": "exam",
                                    "display": "Exam"
                                  }
                                ],
                                "text": "Exam"
                              }
                            ],
                            "code": {
                              "coding": [
                                {
                                  "system": "http://www.nlm.nih.gov/research/umls",
                                  "code": "C0003811",
                                  "display": "irregular heartbeat"
                                },
                                {
                                  "system": "http://www.nlm.nih.gov/research/umls/aod",
                                  "code": "0000005346"
                                },
                                {
                                  "system": "http://www.nlm.nih.gov/research/umls/bi",
                                  "code": "BI00057"
                                },
                                {
                                  "system": "http://www.nlm.nih.gov/research/umls/ccpss",
                                  "code": "1017785"
                                },
                                {
                                  "system": "http://www.nlm.nih.gov/research/umls/ccs",
                                  "code": "7.2.9"
                                },
                                {
                                  "system": "http://www.nlm.nih.gov/research/umls/ccsr_10",
                                  "code": "CIR017"
                                },
                                {
                                  "system": "http://www.nlm.nih.gov/research/umls/ccsr_icd10cm",
                                  "code": "CIR017"
                                },
                                {
                                  "system": "http://www.nlm.nih.gov/research/umls/chv",
                                  "code": "0000001440"
                                },
                                {
                                  "system": "http://www.nlm.nih.gov/research/umls/costar",
                                  "code": "153"
                                },
                                {
                                  "system": "http://www.nlm.nih.gov/research/umls/csp",
                                  "code": "1393-3277"
                                },
                                {
                                  "system": "http://www.nlm.nih.gov/research/umls/cst",
                                  "code": "ARRHYTHMIA"
                                },
                                {
                                  "system": "http://www.nlm.nih.gov/research/umls/hpo",
                                  "code": "HP:0011675"
                                },
                                {
                                  "system": "http://hl7.org/fhir/sid/icd-10",
                                  "code": "I49.9"
                                },
                                {
                                  "system": "http://hl7.org/fhir/sid/icd-10-am",
                                  "code": "I49.9"
                                },
                                {
                                  "system": "http://hl7.org/fhir/sid/icd-10-cm",
                                  "code": "I49.9"
                                },
                                {
                                  "system": "http://hl7.org/fhir/sid/icd-9-cm",
                                  "code": "427.9"
                                },
                                {
                                  "system": "http://www.nlm.nih.gov/research/umls/icpc",
                                  "code": "K80"
                                },
                                {
                                  "system": "http://www.nlm.nih.gov/research/umls/icpc2eeng",
                                  "code": "K80"
                                },
                                {
                                  "system": "http://hl7.org/fhir/sid/icpc2icd10eng",
                                  "code": "MTHU033639"
                                },
                                {
                                  "system": "http://hl7.org/fhir/sid/icpc-2p",
                                  "code": "K80012"
                                },
                                {
                                  "system": "http://www.nlm.nih.gov/research/umls/lch",
                                  "code": "U000359"
                                },
                                {
                                  "system": "http://www.nlm.nih.gov/research/umls/lch_nw",
                                  "code": "sh85007430"
                                },
                                {
                                  "system": "http://loinc.org",
                                  "code": "LA15419-7"
                                },
                                {
                                  "system": "http://www.nlm.nih.gov/research/umls/mdr",
                                  "code": "10003119"
                                },
                                {
                                  "system": "http://www.nlm.nih.gov/research/umls/medcin",
                                  "code": "35851"
                                },
                                {
                                  "system": "http://www.nlm.nih.gov/research/umls/medlineplus",
                                  "code": "147"
                                },
                                {
                                  "system": "http://www.nlm.nih.gov/research/umls/msh",
                                  "code": "D001145"
                                },
                                {
                                  "system": "http://www.nlm.nih.gov/research/umls/mth",
                                  "code": "153"
                                },
                                {
                                  "system": "http://www.nlm.nih.gov/research/umls/mthicd9",
                                  "code": "427.9"
                                },
                                {
                                  "system": "http://www.nlm.nih.gov/research/umls/nanda-i",
                                  "code": "00126"
                                },
                                {
                                  "system": "http://ncimeta.nci.nih.gov",
                                  "code": "C2881"
                                },
                                {
                                  "system": "http://www.nlm.nih.gov/research/umls/nci_fda",
                                  "code": "1721"
                                },
                                {
                                  "system": "http://www.nlm.nih.gov/research/umls/nci_gdc",
                                  "code": "C2881"
                                },
                                {
                                  "system": "http://www.nlm.nih.gov/research/umls/nci_nichd",
                                  "code": "C2881"
                                },
                                {
                                  "system": "http://www.nlm.nih.gov/research/umls/nci_cadsr",
                                  "code": "C2881"
                                },
                                {
                                  "system": "http://www.nlm.nih.gov/research/umls/noc",
                                  "code": "040520"
                                },
                                {
                                  "system": "http://www.nlm.nih.gov/research/umls/omim",
                                  "code": "115000"
                                },
                                {
                                  "system": "http://www.nlm.nih.gov/research/umls/psy",
                                  "code": "03790"
                                },
                                {
                                  "system": "http://www.nlm.nih.gov/research/umls/rcd",
                                  "code": "X77BB"
                                },
                                {
                                  "system": "http://snomed.info/sct",
                                  "code": "F-73102"
                                },
                                {
                                  "system": "http://snomed.info/sct/900000000000207008",
                                  "code": "D3-30010"
                                },
                                {
                                  "system": "http://snomed.info/sct/731000124108",
                                  "code": "698247007"
                                },
                                {
                                  "system": "http://www.nlm.nih.gov/research/umls/who",
                                  "code": "0433"
                                }
                              ],
                              "text": "irregular heartbeat"
                            },
                            "subject": {
                              "reference": "Patient/f1798119-cb82-4213-be11-3adede70458a",
                              "type": "Patient"
                            },
                            "encounter": {
                              "reference": "Encounter/182cecd7-bbda-4af5-84a6-0ac41d4565c5",
                              "type": "Encounter",
                              "display": "unknown"
                            },
                            "interpretation": [
                              {
                                "coding": [
                                  {
                                    "system": "http://terminology.hl7.org/CodeSystem/v3-ObservationInterpretation",
                                    "code": "POS",
                                    "display": "Positive"
                                  }
                                ],
                                "text": "Positive"
                              }
                            ]
                          }
                        },
                        {
                          "fullUrl": "List/d0bda484-124f-4336-9fcc-92b77ab946f7",
                          "resource": {
                            "resourceType": "List",
                            "id": "d0bda484-124f-4336-9fcc-92b77ab946f7",
                            "status": "current",
                            "mode": "snapshot",
                            "title": "General",
                            "subject": {
                              "reference": "Patient/f1798119-cb82-4213-be11-3adede70458a",
                              "type": "Patient"
                            },
                            "encounter": {
                              "reference": "Encounter/182cecd7-bbda-4af5-84a6-0ac41d4565c5",
                              "type": "Encounter",
                              "display": "unknown"
                            },
                            "entry": [
                              {
                                "item": {
                                  "reference": "Condition/75c380b2-a73c-4a57-8e33-2f16ac5cf095",
                                  "type": "Condition",
                                  "display": "delirium"
                                }
                              },
                              {
                                "item": {
                                  "reference": "Condition/1e012874-65d8-48e4-9c9b-eeeaf73475dc",
                                  "type": "Condition",
                                  "display": "panic"
                                }
                              },
                              {
                                "item": {
                                  "reference": "Condition/6bce38f5-aaa8-4e2f-966d-84a5c904cfb2",
                                  "type": "Condition",
                                  "display": "psychosis"
                                }
                              },
                              {
                                "item": {
                                  "reference": "Condition/4d3f63ac-709f-4af9-87d1-2cc68cab4586",
                                  "type": "Condition",
                                  "display": "heart failure"
                                }
                              },
                              {
                                "item": {
                                  "reference": "Observation/b3b231a5-acf4-49e2-b01f-0b8b0bef5fe5",
                                  "type": "Observation",
                                  "display": "rapid"
                                }
                              },
                              {
                                "item": {
                                  "reference": "Observation/d05e105a-2936-47f2-a0e4-58dbb336a0e4",
                                  "type": "Observation",
                                  "display": "irregular heartbeat"
                                }
                              }
                            ]
                          }
                        }
                      ]
                    }
                  }
                ],
                "errors": [],
                "modelVersion": "2022-03-01"
              }
            }
          ]
        }
      }
    }
  ],
  "Variables": {
    "RandomSeed": "1221553152",
    "TEXT_ANALYTICS_ENDPOINT": "https://javatextanalyticstestresources.cognitiveservices.azure.com"
  }
}
